Folder: ubc-civl511/HW1

File: HW1_16Ga T2.csv
Partner Data Point File,,,,,
Start of Test Wed 21 Jul 2010 14:11:02,,,,,
Time ( min ),Stress ( psi ),Strain ( in/in ),Position ( in ),Load ( lbf ),Zone
0,7089.041,0.000358,0.0041,207,Speed 1
0.00833,8047.945,0.000397,0.0047,235,Speed 1
0.01667,8561.644,0.000417,0.0049,250,Speed 1
0.025,8938.357,0.00043,0.0053,261,Speed 1
0.03333,9315.069,0.000445,0.0054,272,Speed 1
0.04167,9726.028,0.000459,0.0055,284,Speed 1
0.05,10102.74,0.000475,0.0057,295,Speed 1
0.05833,10513.7,0.000487,0.0058,307,Speed 1
0.06667,10924.66,0.000503,0.006,319,Speed 1
0.075,11335.62,0.000519,0.0061,331,Speed 1
0.08333,11712.33,0.000532,0.0064,342,Speed 1
0.09167,12123.29,0.000549,0.0063,354,Speed 1
0.1,12568.49,0.000563,0.0065,367,Speed 1
0.10833,12979.45,0.000578,0.0066,379,Speed 1
0.11667,13390.41,0.000594,0.0067,391,Speed 1
0.125,13801.37,0.000607,0.0069,403,Speed 1
0.13333,14212.33,0.000622,0.007,415,Speed 1
0.14167,14623.29,0.000636,0.0072,427,Speed 1
0.15,15068.49,0.00065,0.0072,440,Speed 1
0.15833,15479.45,0.000666,0.0074,452,Speed 1
0.16667,15890.41,0.000679,0.0076,464,Speed 1
0.175,16301.37,0.000695,0.0077,476,Speed 1
0.18333,16712.33,0.000709,0.0077,488,Speed 1
0.19167,17123.29,0.000723,0.008,500,Speed 1
0.2,17534.25,0.000737,0.008,512,Speed 1
0.20833,17979.45,0.000752,0.0082,525,Speed 1
0.21667,18390.41,0.000766,0.0082,537,Speed 1
0.225,18801.37,0.000782,0.0084,549,Speed 1
0.23333,19212.33,0.000768,0.0084,561,Speed 1
0.24167,19623.29,0.000783,0.0086,573,Speed 1
0.25,20034.25,0.000802,0.0086,585,Speed 1
0.25833,20445.21,0.000818,0.0088,597,Speed 1
0.26667,20890.41,0.000835,0.009,610,Speed 1
0.275,21301.37,0.000852,0.009,622,Speed 1
0.28333,21712.33,0.000869,0.0092,634,Speed 1
0.29167,22123.29,0.000885,0.0093,646,Speed 1
0.3,22534.25,0.000897,0.0094,658,Speed 1
0.30833,22945.21,0.000912,0.0095,670,Speed 1
0.31667,23390.41,0.000928,0.0096,683,Speed 1
0.325,23801.37,0.000944,0.0098,695,Speed 1
0.33333,24212.33,0.000959,0.0098,707,Speed 1
0.34167,24623.29,0.000973,0.01,719,Speed 1
0.35,25068.49,0.000987,0.0102,732,Speed 1
0.35833,25479.45,0.000998,0.0103,744,Speed 1
0.36667,25890.41,0.001014,0.0104,756,Speed 1
0.375,26301.37,0.001029,0.0104,768,Speed 1
0.38333,26712.33,0.001043,0.0106,780,Speed 1
0.39167,27123.29,0.001058,0.0107,792,Speed 1
0.4,27534.25,0.001072,0.0108,804,Speed 1
0.40833,27979.45,0.001086,0.011,817,Speed 1
0.41667,28390.41,0.001101,0.0111,829,Speed 1
0.425,28801.37,0.001116,0.0112,841,Speed 1
0.43333,29212.33,0.001127,0.0113,853,Speed 1
0.44167,29623.29,0.001142,0.0113,865,Speed 1
0.45,30034.25,0.001155,0.0115,877,Speed 1
0.45833,30479.45,0.001172,0.0117,890,Speed 1
0.46667,30890.41,0.001186,0.0117,902,Speed 1
0.475,31301.37,0.001199,0.0119,914,Speed 1
0.48333,31712.33,0.001212,0.0119,926,Speed 1
0.49167,32123.29,0.001226,0.012,938,Speed 1
0.5,32534.25,0.00124,0.0122,950,Speed 1
0.50833,32979.45,0.00125,0.0123,963,Speed 1
0.51667,33390.41,0.001262,0.0124,975,Speed 1
0.525,33801.37,0.001278,0.0124,987,Speed 1
0.53333,34212.33,0.001293,0.0127,999,Speed 1
0.54167,34623.29,0.001307,0.0128,1011,Speed 1
0.55,35034.25,0.001322,0.013,1023,Speed 1
0.55833,35479.45,0.001334,0.013,1036,Speed 1
0.56667,35890.41,0.001349,0.013,1048,Speed 1
0.575,36301.37,0.001363,0.0132,1060,Speed 1
0.58333,36712.33,0.001376,0.0133,1072,Speed 1
0.59167,37123.29,0.001392,0.0134,1084,Speed 1
0.6,37534.25,0.001405,0.0135,1096,Speed 1
0.60833,37945.21,0.001414,0.0137,1108,Speed 1
0.61667,38390.41,0.001426,0.0137,1121,Speed 1
0.625,38801.37,0.00144,0.014,1133,Speed 1
0.63333,39212.33,0.001456,0.014,1145,Speed 1
0.64167,39623.29,0.001471,0.0142,1157,Speed 1
0.65,40034.25,0.001485,0.0142,1169,Speed 1
0.65833,44897.26,0.001644,0.0166,1311,Speed 2
0.66667,56917.81,0.002119,0.0209,1662,Speed 2
0.675,58184.93,0.003632,0.0252,1699,Speed 2
0.68333,57636.99,0.005493,0.0294,1683,Speed 2
0.69167,57876.71,0.006632,0.0336,1690,Speed 2
0.7,58116.44,0.007452,0.0377,1697,Speed 2
0.70833,58082.19,0.008453,0.0419,1696,Speed 2
0.71667,58219.18,0.009337,0.0461,1700,Speed 2
0.725,58424.66,0.010283,0.0502,1706,Speed 2
0.73333,58904.11,0.011268,0.0544,1720,Speed 2
0.74167,58561.65,0.012011,0.0586,1710,Speed 2
0.75,59075.34,0.01276,0.0628,1725,Speed 2
0.75833,59417.81,0.014045,0.0669,1735,Speed 2
0.76667,59760.28,0.015374,0.071,1745,Speed 2
0.775,60102.74,0.016604,0.0752,1755,Speed 2
0.78333,60410.96,0.017779,0.0793,1764,Speed 2
0.79167,60684.93,0.018986,0.0836,1772,Speed 2
0.8,60787.67,0.020297,0.0878,1775,Speed 2
0.80833,60650.69,0.021956,0.092,1771,Speed 2
0.81667,60650.69,0.023665,0.0961,1771,Speed 2
0.825,59828.77,0.025588,0.1002,1747,Speed 2
0.83333,59315.07,0.027606,0.1044,1732,Speed 2
0.84167,58938.36,0.029643,0.1086,1721,Speed 2
0.85,58835.62,0.031673,0.1128,1718,Speed 2
0.85833,59554.8,0.033619,0.1168,1739,Speed 2
0.86667,60308.22,0.035519,0.1211,1761,Speed 2
0.875,60342.47,0.037394,0.1252,1762,Speed 2
0.88333,59589.04,0.039406,0.1294,1740,Speed 2
0.89167,59349.32,0.041446,0.1336,1733,Speed 2
0.9,59280.82,0.043476,0.1376,1731,Speed 2
0.90833,59863.02,0.045458,0.1419,1748,Speed 2
0.91667,60239.73,0.047429,0.146,1759,Speed 2
0.925,59212.33,0.04947,0.1502,1729,Speed 2
0.93333,59554.8,0.051465,0.1543,1739,Speed 2
0.94167,59315.07,0.053508,0.1586,1732,Speed 2
0.95,58082.19,0.055567,0.1627,1696,Speed 2
0.95833,57705.48,0.057587,0.1669,1685,Speed 2
0.96667,58938.36,0.0595,0.1711,1721,Speed 2
0.975,60273.98,0.061281,0.1752,1760,Speed 2
0.98333,61027.4,0.062965,0.1794,1782,Speed 2
0.99167,61472.61,0.064668,0.1835,1795,Speed 2
1,61746.58,0.066422,0.1878,1803,Speed 2
1.00833,61952.06,0.068159,0.1918,1809,Speed 2
1.01667,62123.29,0.069855,0.1961,1814,Speed 2
1.025,62260.28,0.071537,0.2003,1818,Speed 2
1.03333,62397.26,0.073202,0.2044,1822,Speed 2
1.04167,62534.25,0.074852,0.2086,1826,Speed 2
1.05,62636.99,0.076498,0.2127,1829,Speed 2
1.05833,62739.73,0.078138,0.2169,1832,Speed 2
1.06667,62842.47,0.079771,0.2211,1835,Speed 2
1.075,62979.45,0.081405,0.2252,1839,Speed 2
1.08333,63047.95,0.083045,0.2294,1841,Speed 2
1.09167,63184.93,0.084688,0.2335,1845,Speed 2
1.1,63253.43,0.086328,0.2378,1847,Speed 2
1.10833,63356.17,0.087986,0.242,1850,Speed 2
1.11667,63458.91,0.089644,0.2461,1853,Speed 2
1.125,63493.15,0.091308,0.2502,1854,Speed 2
1.13333,63595.89,0.092967,0.2544,1857,Speed 2
1.14167,63698.63,0.094629,0.2586,1860,Speed 2
1.15,63767.13,0.0963,0.2627,1862,Speed 2
1.15833,63835.62,0.097977,0.2669,1864,Speed 2
1.16667,63869.87,0.099656,0.271,1865,Speed 2
1.175,63938.36,0.10134,0.2752,1867,Speed 2
1.18333,64006.85,0.10302,0.2794,1869,Speed 2
1.19167,64075.34,0.10471,0.2835,1871,Speed 2
1.2,64143.84,0.10641,0.2877,1873,Speed 2
1.20833,64178.08,0.1081,0.2919,1874,Speed 2
1.21667,64246.58,0.10981,0.296,1876,Speed 2
1.225,64280.82,0.11152,0.3002,1877,Speed 2
1.23333,64349.32,0.11323,0.3044,1879,Speed 2
1.24167,64417.81,0.11495,0.3086,1881,Speed 2
1.25,64452.06,0.11668,0.3127,1882,Speed 2
1.25833,64486.3,0.1184,0.3169,1883,Speed 2
1.26667,64520.55,0.12012,0.3211,1884,Speed 2
1.275,64589.04,0.12184,0.3252,1886,Speed 2
1.28333,64623.29,0.12358,0.3294,1887,Speed 2
1.29167,64623.29,0.12532,0.3336,1887,Speed 2
1.3,64657.54,0.12706,0.3378,1888,Speed 2
1.30833,64726.03,0.12881,0.342,1890,Speed 2
1.31667,64760.28,0.13057,0.3461,1891,Speed 2
1.325,64794.52,0.13234,0.3502,1892,Speed 2
1.33333,64828.77,0.13411,0.3544,1893,Speed 2
1.34167,64828.77,0.13588,0.3586,1893,Speed 2
1.35,64863.02,0.13766,0.3627,1894,Speed 2
1.35833,64897.26,0.13944,0.3669,1895,Speed 2
1.36667,64863.02,0.14122,0.3711,1894,Speed 2
1.375,64931.51,0.14293,0.3752,1896,Speed 2
1.38333,64965.76,0.14472,0.3793,1897,Speed 2
1.39167,64965.76,0.14652,0.3835,1897,Speed 2
1.4,65000,0.14832,0.3877,1898,Speed 2
1.40833,65034.25,0.15013,0.3919,1899,Speed 2
1.41667,65034.25,0.15193,0.396,1899,Speed 2
1.425,65034.25,0.15374,0.4002,1899,Speed 2
1.43333,65068.5,0.15556,0.4044,1900,Speed 2
1.44167,65102.74,0.15738,0.4086,1901,Speed 2
1.45,65068.5,0.15922,0.4128,1900,Speed 2
1.45833,65102.74,0.16105,0.4169,1901,Speed 2
1.46667,65102.74,0.16289,0.4209,1901,Speed 2
1.475,65102.74,0.16473,0.4252,1901,Speed 2
1.48333,65136.99,0.16659,0.4294,1902,Speed 2
1.49167,65136.99,0.16845,0.4335,1902,Speed 2
1.5,65136.99,0.17033,0.4378,1902,Speed 2
1.50833,65136.99,0.1722,0.4419,1902,Speed 2
1.51667,65136.99,0.17408,0.4461,1902,Speed 2
1.525,65136.99,0.17597,0.4502,1902,Speed 2
1.52833,65136.99,0.17672,0.4519,1902,Speed 2